Data from USB2G577181__36__16-42-26-589.txt Node

Date: Tue Nov 15 16:42:26 PST 2022
User: gprabhakar
Spectrometer: USB2G57718
Scans to average: 1
Trigger mode: 4
Integration Time (sec): 1.000000E-1
Electric dark correction enabled: true
Boxcar width: 0
XAxis mode: Wavelengths
Number of Pixels in Spectrum: 651
>>>>>Begin Spectral Data<<<<<
350	-1.3
351	2.62
352	-1.43
353	-1.8
354	1.91
355	-0.77
356	-0.8
357	3.48
358	1.9
359	3.75
360	-0.93
361	-0.82
362	-0.81
363	2.49
364	3.05
365	3.99
366	2.04
367	5.9
368	3.28
369	0.44
370	0.57
371	6.81
372	5.18
373	3.24
374	-0.1
375	-3.03
376	5.09
377	2.22
378	2.19
379	2.27
380	-0.04
381	3.34
382	0.4
383	1.26
384	1.88
385	3.67
386	0.22
387	2.64
388	0.28
389	2.17
390	1.73
391	-0.58
392	1.16
393	3.93
394	0.85
395	3.15
396	1.94
397	2.89
398	4.26
399	3.83
400	4.19
401	5.08
402	0.41
403	0.9
404	0.44
405	6.77
406	3.42
407	2.79
408	5.03
409	0.91
410	7.72
411	3.29
412	1.96
413	4.22
414	9.21
415	2.95
416	1.03
417	6.74
418	4.38
419	5.16
420	2.52
421	5.34
422	6.18
423	6.58
424	2.52
425	3.14
426	2.01
427	2.42
428	8.07
429	1.7
430	2.26
431	4.94
432	3.87
433	4.6
434	3.85
435	-1.56
436	2.57
437	3.83
438	4.22
439	4.08
440	6.99
441	6.03
442	11.66
443	2.75
444	5.11
445	8.35
446	8.11
447	8.25
448	8.26
449	7.72
450	9.3
451	8.1
452	8.16
453	7.03
454	12.37
455	7.82
456	4.18
457	5.66
458	6.2
459	5.41
460	10.03
461	5.83
462	6.52
463	7.17
464	4.81
465	6.18
466	11.45
467	4.3
468	7.8
469	7.09
470	5.35
471	5.55
472	5.29
473	8.96
474	6.86
475	8.91
476	7.19
477	9.52
478	7.53
479	5.21
480	8.03
481	6.88
482	9.49
483	5.16
484	11.34
485	9.97
486	11.13
487	9.21
488	6.78
489	7.7
490	6.46
491	4.22
492	9.27
493	7.27
494	7.13
495	11.09
496	11.01
497	9.98
498	12.95
499	13.72
500	11.95
501	11.29
502	12.36
503	7.65
504	12.56
505	8
506	9.62
507	12.16
508	13.92
509	11.43
510	14.98
511	8.18
512	19.25
513	16.09
514	16.32
515	14.33
516	13.99
517	12.01
518	15.67
519	14.34
520	15.75
521	10.67
522	16.1
523	14.29
524	17.91
525	17.57
526	15.27
527	16.75
528	14.15
529	15.48
530	17.76
531	16.27
532	15.5
533	18.15
534	16.72
535	17.69
536	16.29
537	21.2
538	20.46
539	18
540	14.27
541	15.97
542	15.96
543	19.38
544	22.3
545	16.34
546	18.37
547	19.93
548	16.48
549	15.17
550	16.57
551	17.33
552	19.79
553	17.51
554	17.75
555	16.79
556	18.26
557	18.25
558	19.24
559	18.42
560	18.34
561	19.83
562	17.15
563	17.2
564	21.15
565	17.83
566	19.36
567	18.22
568	22.31
569	17.95
570	21.05
571	19.85
572	23.04
573	18.41
574	13.66
575	20.09
576	20.02
577	17.5
578	22.24
579	17.28
580	20.9
581	21.68
582	16.74
583	16.92
584	21.4
585	18.25
586	21.08
587	23.29
588	21.32
589	17.68
590	22.24
591	21.86
592	21.31
593	18.4
594	17.72
595	17.72
596	23.17
597	22.19
598	19.03
599	24.06
600	24.72
601	22.1
602	21.51
603	22.1
604	20.14
605	20.06
606	18.89
607	20.14
608	21.74
609	19.87
610	23.75
611	22.16
612	25.64
613	24.07
614	24.65
615	26
616	23.63
617	24.91
618	27.01
619	24.4
620	27.43
621	29.89
622	29.53
623	32.62
624	35.82
625	29.77
626	38.17
627	36.08
628	35.82
629	36.91
630	41.07
631	42.59
632	40.38
633	42.93
634	38.48
635	39.68
636	39.17
637	39.24
638	41.79
639	41.59
640	41.23
641	39.79
642	41.88
643	41.62
644	35.78
645	35.36
646	37.17
647	38.23
648	39.57
649	42.15
650	41.3
651	37.54
652	48.45
653	44.38
654	46.48
655	47.26
656	54.18
657	55.29
658	52.07
659	60.05
660	59.75
661	62.48
662	68.09
663	71.33
664	71.03
665	75.96
666	85.14
667	86.28
668	82.54
669	83.72
670	86.73
671	89.32
672	93.19
673	95.09
674	89.8
675	94.11
676	92.03
677	96.28
678	94.45
679	92.08
680	95.6
681	93.75
682	89.95
683	85.68
684	84.08
685	67.2
686	67.37
687	66.84
688	60.65
689	57.01
690	50.18
691	47.05
692	42.28
693	36.18
694	25.2
695	23.55
696	15.44
697	20.54
698	14.8
699	13.29
700	14.45
701	11.71
702	12.09
703	13.61
704	3.85
705	13.15
706	9.08
707	9.63
708	9.2
709	11.94
710	13.58
711	5.68
712	10.02
713	7.27
714	8.41
715	4.98
716	8.41
717	5.51
718	5.09
719	8.54
720	4.64
721	7.75
722	5.04
723	5.55
724	4.73
725	5.51
726	2.76
727	4.48
728	7.09
729	6.89
730	9.14
731	3.3
732	2.76
733	5.24
734	4.24
735	5.67
736	2.15
737	4.12
738	5.24
739	6.22
740	6.19
741	7.06
742	1.27
743	4.8
744	3.76
745	4.85
746	3.78
747	2.91
748	1.71
749	3.57
750	0.5
751	4.89
752	3.59
753	2.14
754	5.99
755	4.57
756	4.02
757	4.22
758	4.27
759	3.22
760	4.24
761	4.03
762	1
763	3.42
764	3.53
765	1.92
766	2.08
767	3.45
768	3.59
769	2.17
770	4.86
771	5.59
772	1.29
773	1.19
774	4.02
775	6.18
776	3.81
777	4.29
778	2.22
779	0.81
780	5.34
781	0.89
782	2.69
783	3.33
784	6.21
785	0.71
786	3.25
787	3.71
788	6.76
789	3.7
790	3.71
791	2.66
792	2.39
793	3.2
794	-1.05
795	0.2
796	3.78
797	-0.15
798	1.67
799	4.19
800	2.02
801	3.27
802	5.64
803	3.93
804	-0.44
805	3.71
806	0.1
807	1.14
808	3.2
809	3.21
810	0.48
811	0.31
812	6.12
813	4.92
814	4.92
815	0.33
816	3.41
817	2.6
818	2.27
819	3.24
820	1.69
821	2.17
822	2.25
823	1.14
824	-1.41
825	2.33
826	1.66
827	1.23
828	0.46
829	2.23
830	-0.62
831	3.05
832	5.26
833	3.55
834	2.35
835	0.46
836	0.44
837	-0.71
838	4.12
839	-1.35
840	-0.27
841	0.89
842	3.24
843	1.08
844	1.15
845	0.72
846	2.34
847	3.17
848	0.67
849	0.08
850	1.6
851	1.22
852	-0.91
853	2.38
854	-0.3
855	-1.23
856	0.24
857	2.72
858	-0.86
859	-3.36
860	0.07
861	1.46
862	1.2
863	0.87
864	2.26
865	3.3
866	1.14
867	0.91
868	-3.62
869	1.98
870	1.44
871	1.44
872	1.25
873	0.57
874	0.36
875	-3.58
876	-2.75
877	2.08
878	1.1
879	0.94
880	4.6
881	0.83
882	2.59
883	-4.93
884	4.12
885	3.51
886	1.23
887	3.55
888	1.45
889	0.43
890	0.18
891	0.65
892	-1.9
893	1.53
894	2.7
895	1.06
896	-1.61
897	1.62
898	1.28
899	-0.82
900	-0.38
901	3.74
902	1.53
903	1.15
904	2.2
905	0.63
906	1.05
907	4.86
908	-3
909	3.16
910	-3.36
911	0.93
912	4.2
913	0.53
914	0.23
915	2.33
916	2.04
917	1.37
918	-1.71
919	0.75
920	3.21
921	2.29
922	5.07
923	1.43
924	4.66
925	0.83
926	1.26
927	0.94
928	-1.89
929	2.38
930	1.96
931	2.01
932	3.32
933	1.15
934	0.91
935	0.25
936	1.54
937	1.07
938	-0.81
939	-2.66
940	-1.35
941	2.96
942	0.9
943	0.32
944	-0.12
945	3.22
946	-0.78
947	1.55
948	1.18
949	-0.24
950	1.2
951	2
952	1.34
953	-0.83
954	5.77
955	-1.19
956	2.46
957	1.25
958	2.39
959	0.13
960	1.26
961	3.22
962	-0.48
963	-2.81
964	-0.03
965	3.22
966	2.72
967	3.54
968	3.28
969	0.61
970	-0.37
971	3.74
972	1.86
973	3.27
974	0.11
975	4.31
976	1.56
977	-1.17
978	2.47
979	1.33
980	-6.93
981	5.32
982	-1.79
983	2.33
984	3.63
985	4.2
986	0.54
987	4.08
988	2.53
989	0.55
990	1.77
991	4.85
992	-0.14
993	1.18
994	0.88
995	0.64
996	1.19
997	0.77
998	3.09
999	0.28
1000	-1.34
