Data from USB2G577181__10__16-12-50-032.txt Node

Date: Tue Nov 15 16:12:50 PST 2022
User: gprabhakar
Spectrometer: USB2G57718
Scans to average: 1
Trigger mode: 4
Integration Time (sec): 1.000000E-1
Electric dark correction enabled: true
Boxcar width: 0
XAxis mode: Wavelengths
Number of Pixels in Spectrum: 651
>>>>>Begin Spectral Data<<<<<
350	1.51
351	-2.04
352	-2.58
353	0.14
354	2.97
355	0.69
356	-0.8
357	3.62
358	1.38
359	2.19
360	-0.41
361	-3.84
362	1.84
363	-0.27
364	-0.92
365	0.09
366	0.65
367	1.76
368	-0.95
369	0.4
370	4.6
371	5.63
372	4.03
373	-1.39
374	-1.03
375	0.76
376	3.55
377	-0.77
378	3.17
379	0.75
380	1.6
381	3.86
382	1.95
383	1.29
384	5.63
385	1.97
386	4.34
387	-3.55
388	-0.08
389	1.12
390	0.31
391	4.08
392	5.04
393	5.71
394	2.6
395	5.26
396	1.92
397	1
398	3.49
399	3.38
400	-1.87
401	3.59
402	2.86
403	1.98
404	2.42
405	3.77
406	2.28
407	3.74
408	2.56
409	3.39
410	2.27
411	2.27
412	0.02
413	5.27
414	2.6
415	5.08
416	5.26
417	4.77
418	5.97
419	4.07
420	3.19
421	6.41
422	7.1
423	7.8
424	6.98
425	9
426	15.09
427	10.91
428	13.96
429	13.4
430	15.86
431	22.86
432	23.6
433	24.25
434	30.44
435	38.81
436	41.78
437	47.24
438	57.94
439	67.27
440	82.84
441	87.43
442	112.24
443	131.04
444	143.46
445	161.07
446	195.57
447	228.29
448	265.93
449	309.22
450	363.92
451	411.35
452	495.51
453	558.22
454	643.44
455	720.2
456	773.16
457	837.56
458	897.14
459	951.84
460	941.89
461	960.37
462	916.39
463	898.24
464	880.06
465	823.23
466	786.26
467	763.32
468	735.97
469	700.47
470	692.39
471	659.25
472	643.47
473	610.42
474	604.15
475	554.73
476	513.99
477	472.03
478	462.09
479	452.78
480	399.6
481	393.48
482	365.74
483	338.12
484	309.08
485	280.38
486	267.07
487	236.48
488	230.97
489	215.04
490	194.35
491	176.41
492	147.52
493	147.17
494	134
495	128.11
496	115.89
497	112.3
498	106.96
499	87.9
500	81.86
501	72.37
502	64.92
503	59.68
504	54.49
505	51.59
506	47.89
507	40.21
508	37.16
509	34.65
510	33.5
511	31.1
512	29.09
513	27.7
514	25.28
515	24.14
516	19.97
517	15.94
518	12.33
519	19.18
520	15.55
521	13.47
522	12.19
523	13.32
524	11.36
525	10.35
526	9.2
527	4.74
528	7.16
529	6.92
530	7.11
531	7.14
532	7.22
533	4.98
534	5.75
535	7
536	3.8
537	4.12
538	5.9
539	5.77
540	6.66
541	4.95
542	0.26
543	1.4
544	1.88
545	1.25
546	2.03
547	5.22
548	4.4
549	-0.21
550	4.96
551	2.44
552	2.09
553	3.62
554	3.3
555	4.49
556	6.5
557	1.77
558	0.62
559	0.8
560	-1.17
561	1.53
562	5.11
563	-0.83
564	1.28
565	1.49
566	3.26
567	2.12
568	5.23
569	1.31
570	0.24
571	2.42
572	2.53
573	1.32
574	-0.05
575	0.12
576	3.05
577	1.79
578	-0.64
579	3.27
580	3.39
581	1.03
582	-1.6
583	2.48
584	-0.85
585	-0.98
586	2.8
587	2.46
588	0.49
589	5.96
590	0.09
591	2.17
592	2.09
593	0.8
594	3.16
595	-0.2
596	1.21
597	1.11
598	3.1
599	2.71
600	-1.08
601	1.44
602	3.66
603	-0
604	3.24
605	-1.23
606	4.6
607	0.59
608	-0.38
609	1.39
610	1.45
611	0.18
612	1.19
613	1.16
614	-0.06
615	0.67
616	-0.76
617	0.98
618	0.37
619	0.06
620	3.38
621	-0.96
622	0.29
623	2.33
624	2.03
625	3.65
626	-1.97
627	0.23
628	2.01
629	-0.31
630	0.41
631	1.31
632	0.84
633	4.64
634	5.09
635	-0.58
636	3.14
637	-0.29
638	-2.66
639	-0.21
640	2.1
641	3.78
642	-2.87
643	0.61
644	0.49
645	0.85
646	0.12
647	-0.13
648	-0.78
649	0.41
650	1.32
651	0.95
652	2.15
653	0.2
654	2.73
655	1.56
656	-1.74
657	3.17
658	0.15
659	2.12
660	1.88
661	0.08
662	2.79
663	0.35
664	-1.06
665	0.73
666	2.23
667	1.86
668	-1.74
669	3.81
670	-2.17
671	0.94
672	-0.89
673	4.37
674	-2.43
675	-1.84
676	2.09
677	-2.05
678	-0.9
679	-0.19
680	1.7
681	0.19
682	-1.99
683	-0.37
684	2.02
685	0.82
686	0.61
687	1
688	1.69
689	1.15
690	-1.95
691	-1.09
692	-1.94
693	0.13
694	1.06
695	2.12
696	-1.6
697	1.3
698	-3.98
699	0.4
700	-1.12
701	-3.82
702	1.77
703	3.74
704	-0.3
705	-0.06
706	-0.39
707	-2.62
708	1.02
709	-0.64
710	0.58
711	-2.33
712	1.57
713	4.02
714	1.68
715	0.2
716	3.12
717	0.31
718	3.16
719	1.79
720	2.17
721	-0.3
722	0.92
723	-0.18
724	0.56
725	1.22
726	-0.33
727	0.61
728	-2.42
729	-1.01
730	0.11
731	-1.93
732	0.7
733	-2.7
734	-0.13
735	1
736	1.91
737	-2.96
738	0.16
739	-1.85
740	1.16
741	-1.39
742	1.32
743	2.5
744	-0.97
745	5.08
746	-0.43
747	-1.5
748	-0.37
749	-0.07
750	-0.71
751	1.17
752	-0.22
753	3.02
754	-0.07
755	-2.26
756	-2.63
757	-1.36
758	0.28
759	-3.91
760	-4.86
761	-0.77
762	2.58
763	0.03
764	-0.1
765	-1.33
766	1.01
767	0.03
768	-1.93
769	-1.52
770	3.24
771	1.23
772	0.27
773	0.13
774	1.77
775	-5.26
776	-2.22
777	-0.26
778	1.24
779	1.03
780	1.19
781	0.29
782	-0.66
783	1.22
784	2.16
785	-3.76
786	0.84
787	2.28
788	0.6
789	0.09
790	-7
791	-0.14
792	1.17
793	-4.86
794	-1.98
795	0.31
796	-0.58
797	-0.21
798	0.52
799	3.14
800	-0.39
801	-0.79
802	-1.62
803	0.94
804	2.16
805	-1.15
806	-3.01
807	0.33
808	1.12
809	1.52
810	-0.07
811	-0.35
812	-1.12
813	1.29
814	0.17
815	-1.85
816	-1.05
817	-2.83
818	2.58
819	-3.98
820	-3.4
821	1.13
822	0.61
823	0.77
824	-1.08
825	2.02
826	-1.89
827	1.17
828	0.37
829	-2.49
830	-3.67
831	0.24
832	1.03
833	0.11
834	-2.2
835	0.94
836	0.94
837	-0.97
838	0.77
839	0.39
840	-0.5
841	2.37
842	0.04
843	-2.88
844	-2.58
845	0.89
846	-1.55
847	-0.8
848	-0.83
849	2.11
850	0.75
851	-1.99
852	3.07
853	-1.44
854	1.58
855	1.22
856	4.14
857	1.1
858	-2.65
859	0.61
860	0.31
861	2.09
862	-1.19
863	0.31
864	3.05
865	-3.08
866	0.76
867	3.3
868	-0.26
869	5.08
870	2.38
871	1.92
872	0.08
873	1.21
874	0.27
875	-0.81
876	-1.9
877	1.73
878	0.35
879	-0.09
880	0.19
881	2.34
882	-2.66
883	-2.97
884	-1.04
885	2.49
886	-0.04
887	-0.98
888	3.2
889	-1.5
890	-3.87
891	1.33
892	-2.2
893	-2.59
894	0.72
895	1.09
896	-3.65
897	0.31
898	-1.16
899	2.12
900	2.06
901	1.04
902	3.12
903	-0.93
904	-0.02
905	-0.01
906	-2.38
907	-0.42
908	0.52
909	-1.46
910	-1.46
911	-0.14
912	1.11
913	0.76
914	0.11
915	2.67
916	0.7
917	-0.95
918	-0.67
919	-3.35
920	-1.9
921	2.29
922	0.22
923	-0.93
924	-0.74
925	2.66
926	1.05
927	-1.3
928	-3.85
929	-1.08
930	-1.64
931	0.95
932	1.61
933	1.1
934	0.58
935	2.98
936	-1.42
937	-1.18
938	2.12
939	-0.42
940	-0.59
941	-0.48
942	-2.22
943	2.05
944	-3.03
945	-2.77
946	-0.62
947	-2.31
948	3.35
949	3.16
950	1.43
951	1.35
952	2.01
953	1.3
954	0.3
955	-0.7
956	1.24
957	1.71
958	-1.8
959	-0.73
960	1.29
961	0.18
962	-2.44
963	-0.88
964	-0.06
965	-1.88
966	-1.86
967	4
968	2.84
969	0.51
970	3.57
971	1.51
972	0.8
973	-2.29
974	-2.34
975	1.91
976	-3.02
977	0.25
978	-1.47
979	0.79
980	-1.76
981	0.27
982	-0.75
983	-2.94
984	-0.43
985	-0.88
986	2.29
987	-1.93
988	-0.1
989	0.98
990	-1.86
991	0.68
992	0.52
993	-0.38
994	2.17
995	0.25
996	-2.87
997	-4.62
998	-1.74
999	-0.39
1000	0.91
