Data from USB2G577181__4__16-09-29-400.txt Node

Date: Tue Nov 15 16:09:29 PST 2022
User: gprabhakar
Spectrometer: USB2G57718
Scans to average: 1
Trigger mode: 4
Integration Time (sec): 1.000000E-1
Electric dark correction enabled: true
Boxcar width: 0
XAxis mode: Wavelengths
Number of Pixels in Spectrum: 651
>>>>>Begin Spectral Data<<<<<
350	0.82
351	-0.07
352	-1.32
353	0.45
354	0.12
355	0.57
356	-3.06
357	3.44
358	-0.94
359	-0.74
360	2.21
361	-0.52
362	2.37
363	1.23
364	2.3
365	-3.34
366	1.89
367	0.17
368	0.42
369	1.72
370	1.13
371	3.32
372	0.46
373	0.4
374	0.33
375	2.39
376	2.19
377	1.45
378	2.58
379	1.85
380	1.12
381	-0.59
382	-1.16
383	1.63
384	1.81
385	2.77
386	0.44
387	3.49
388	3.32
389	-0.55
390	-1.83
391	1.62
392	-2.54
393	-0.55
394	-1.15
395	1.74
396	1.36
397	3.86
398	-3.94
399	1.94
400	1.12
401	-0.61
402	3.1
403	0.93
404	2.48
405	3.79
406	3.42
407	1.06
408	-0.47
409	-1.97
410	-0.88
411	3.36
412	2.49
413	-0.29
414	4.02
415	4.63
416	1.55
417	2.62
418	1.19
419	-0.23
420	1.67
421	3.12
422	2.47
423	5.71
424	4.98
425	5.46
426	0.95
427	0.01
428	-2.52
429	0.05
430	1.95
431	3.39
432	1.42
433	1.38
434	2.82
435	4.24
436	-1.13
437	2.71
438	2.44
439	-0.13
440	4.62
441	-0.65
442	3.12
443	1.36
444	-0.38
445	-1.44
446	1.95
447	-11.35
448	-2.67
449	-0.56
450	0.56
451	4.42
452	2.89
453	4.58
454	-2.12
455	2.31
456	1.08
457	0.1
458	4.45
459	2.94
460	1.32
461	2.77
462	2.71
463	1.43
464	2.49
465	2.46
466	-0.85
467	1
468	0.37
469	0.46
470	0.45
471	3.02
472	-1.55
473	2.66
474	2.83
475	0.44
476	3.55
477	2.53
478	0.56
479	4.59
480	1.29
481	1.65
482	1.67
483	5.6
484	6.33
485	2.82
486	8.64
487	7.52
488	4.7
489	10.64
490	7.05
491	10.31
492	11.8
493	9.02
494	10.26
495	14.2
496	17.13
497	19.92
498	23.58
499	22.1
500	27.24
501	34.26
502	34.59
503	37.58
504	43.74
505	50.38
506	59.07
507	69.28
508	80.85
509	83.42
510	99.62
511	105.8
512	128.71
513	140.87
514	156.04
515	175.44
516	203.95
517	227.15
518	253.38
519	290.55
520	318.36
521	353.96
522	384.83
523	428.14
524	461.41
525	524.33
526	568.33
527	613.05
528	657.12
529	710.66
530	751.72
531	815.71
532	851.11
533	900.2
534	933.56
535	990.89
536	996.54
537	1055.44
538	1064.08
539	1104.74
540	1094.61
541	1106.94
542	1100.84
543	1074.73
544	1076.28
545	1053.31
546	1024.73
547	984.33
548	940.98
549	919.21
550	886.96
551	858.31
552	802.83
553	771.12
554	726.63
555	690.95
556	661.82
557	627.68
558	608.42
559	558.2
560	525.68
561	499.72
562	473.7
563	437.2
564	424.45
565	400.26
566	370.87
567	340.43
568	320.7
569	304.41
570	280.28
571	262.27
572	238.53
573	226.55
574	211.48
575	197.18
576	177.02
577	166.3
578	161.84
579	150.85
580	144.62
581	129.25
582	119.91
583	112.73
584	103.32
585	94.86
586	90.21
587	82.04
588	80.17
589	72.42
590	63.36
591	58.6
592	60.69
593	51.02
594	49.65
595	47.11
596	40.97
597	38.48
598	35.56
599	34.71
600	29.28
601	29.4
602	30.46
603	26.1
604	24.53
605	24.48
606	23.36
607	18.17
608	19.82
609	17.16
610	12.66
611	14.41
612	14.17
613	16.34
614	11.86
615	11.86
616	7.27
617	8.98
618	11.38
619	11.65
620	7.64
621	8.26
622	8.54
623	7.2
624	9.25
625	7.83
626	6.49
627	5.48
628	5.38
629	1.17
630	5.53
631	3.45
632	1.47
633	2.93
634	2.12
635	2.37
636	4.47
637	1.31
638	2.78
639	3.7
640	0.94
641	1.91
642	2.96
643	1.86
644	0.92
645	6.31
646	2.49
647	1.57
648	4.17
649	-3.03
650	0.31
651	0.43
652	0.24
653	0.92
654	-0.32
655	-0.34
656	3.27
657	-0.56
658	0.44
659	3.41
660	-1.79
661	0.01
662	2.36
663	0.88
664	-1.23
665	3.35
666	-1.41
667	-0.74
668	-1.17
669	-2
670	10.17
671	-1.5
672	-2.54
673	0.4
674	-2.49
675	-2.55
676	0.98
677	0.51
678	-3.02
679	-0.14
680	1.23
681	-1.71
682	-2.16
683	2.21
684	2.04
685	-1.47
686	-0.51
687	-1.25
688	0.4
689	-2
690	1.58
691	-0.38
692	0.34
693	0.44
694	0.46
695	0.6
696	1.46
697	3.19
698	0.6
699	-0.65
700	-1.42
701	0.08
702	-4.02
703	-0.01
704	-2.09
705	1.18
706	1.33
707	9.64
708	-1.48
709	-1.87
710	-1.23
711	-0.2
712	-4.32
713	0.11
714	-0.03
715	1.58
716	1.32
717	-1.37
718	0.29
719	-1.97
720	0.46
721	-1.47
722	-0.64
723	-3.57
724	-4.8
725	0.41
726	0.41
727	-1.46
728	-6.75
729	0.17
730	0.78
731	-1.49
732	-2.08
733	2.06
734	-0.27
735	1.54
736	1.51
737	-2.27
738	-1.33
739	-1.52
740	3.46
741	-0.36
742	-0.34
743	-0.7
744	-0.83
745	-3.04
746	0.22
747	-1.99
748	1.02
749	-1.24
750	-1.13
751	1.86
752	0.38
753	0.31
754	0.45
755	0.54
756	0.31
757	-1.21
758	-0.6
759	3.3
760	-2.55
761	1.19
762	-1.39
763	-2.35
764	2.23
765	-2.3
766	-0.02
767	-2.07
768	0.8
769	-2.26
770	-4.45
771	-0.63
772	-0.37
773	0.45
774	2.53
775	-1.68
776	-1.58
777	1.74
778	-1.19
779	3.25
780	1.96
781	1.22
782	-0.89
783	-2.86
784	1.58
785	1.26
786	-0.37
787	-0.18
788	2.03
789	-0.74
790	0.52
791	-4.51
792	0.42
793	-1.66
794	2.62
795	0.39
796	-1.31
797	0.01
798	0
799	-1.63
800	-2.45
801	-0.52
802	-1.97
803	1.32
804	-2.65
805	-0.77
806	0.32
807	-1.43
808	-4.55
809	1.26
810	-1.56
811	4.51
812	1.4
813	-3.32
814	-4.29
815	-2.57
816	0.01
817	-0.3
818	-0.47
819	-2.85
820	-1.34
821	0.46
822	1.94
823	1.35
824	-0.43
825	-1.65
826	-0.28
827	-0.44
828	2.37
829	-3
830	-2.74
831	1.61
832	2.42
833	0.34
834	-0.47
835	-0.38
836	-0.62
837	1.3
838	0.44
839	0.98
840	1.8
841	0.32
842	4.21
843	-2.4
844	-0.53
845	0.11
846	-3.21
847	2.48
848	-0.73
849	-0.4
850	-2.76
851	0.36
852	-2.58
853	-1.68
854	-0.05
855	-0.72
856	1.41
857	2
858	-1.04
859	0.58
860	-0.35
861	1.49
862	0.6
863	0.75
864	0.48
865	2.29
866	0.8
867	0.51
868	-2.88
869	-1
870	0.63
871	5.62
872	0.57
873	1.04
874	-2.88
875	4.53
876	-0.54
877	1.55
878	-1.51
879	-0.71
880	-1.31
881	-0.96
882	-1.91
883	-0.62
884	-0.75
885	-0.73
886	4.67
887	-1.57
888	0.65
889	-0.83
890	0.47
891	1.48
892	-2.38
893	-2.2
894	-2.6
895	0.22
896	2.25
897	-5.43
898	1.77
899	-1.49
900	-1.32
901	-3.18
902	-0.28
903	-1.54
904	-0.17
905	0.19
906	-0.33
907	-1.24
908	1.62
909	0.16
910	-1.78
911	-0.67
912	1.43
913	0.17
914	-0.28
915	-0.22
916	-1.67
917	-4.33
918	1.2
919	-1.21
920	-0.63
921	-1.54
922	0.26
923	2.92
924	-2.92
925	-0.35
926	0.9
927	-0.36
928	-0.53
929	-3.21
930	-2.94
931	-1.12
932	0.25
933	1.44
934	0.56
935	-2.48
936	2.21
937	-0.13
938	1.45
939	-1.42
940	-1.74
941	-0.19
942	-1.68
943	-1.52
944	0.48
945	4.46
946	-2
947	-1.17
948	-2.7
949	-2.37
950	-3.53
951	1.32
952	-1.56
953	-3.21
954	1.92
955	-1.24
956	1.31
957	-1.96
958	-1.92
959	-1.84
960	-0.54
961	-0.33
962	1.34
963	-2.55
964	-0.53
965	-3.48
966	2.45
967	-1.62
968	2.51
969	-2.44
970	-1.68
971	1.99
972	-0.67
973	0.02
974	0.56
975	1.63
976	0.12
977	-1.41
978	-1.58
979	-2.3
980	-0.61
981	0.56
982	-0.14
983	-0.68
984	-0.15
985	-1.55
986	0.38
987	-1.57
988	-0.32
989	-0.27
990	-0.56
991	-2.66
992	-3.84
993	-4.78
994	-2.59
995	0.22
996	1.45
997	-2.58
998	-0.27
999	-0.51
1000	0.26
