Data from USB2G577181__19__16-32-03-589.txt Node

Date: Tue Nov 15 16:32:03 PST 2022
User: gprabhakar
Spectrometer: USB2G57718
Scans to average: 1
Trigger mode: 4
Integration Time (sec): 1.000000E-1
Electric dark correction enabled: true
Boxcar width: 0
XAxis mode: Wavelengths
Number of Pixels in Spectrum: 651
>>>>>Begin Spectral Data<<<<<
350	-0.45
351	-1.13
352	2.35
353	-1.34
354	0.57
355	4.15
356	2.59
357	2.2
358	-0.72
359	1.37
360	2.27
361	1.8
362	1.75
363	0.23
364	2.64
365	3.7
366	3.41
367	2.56
368	3.44
369	0.78
370	2.19
371	2.04
372	3.57
373	5.48
374	2.82
375	1.5
376	-1.06
377	1.35
378	5.84
379	6.88
380	3.67
381	8.38
382	3.59
383	3.23
384	6.19
385	6.02
386	6.48
387	3.03
388	5.31
389	3.66
390	4.48
391	6.97
392	6.69
393	6.43
394	4.02
395	5.59
396	10.88
397	7.38
398	8.85
399	6.93
400	6.68
401	6.93
402	7.9
403	7.31
404	7.7
405	5.12
406	14.58
407	8.85
408	8.21
409	9.84
410	8.1
411	10.91
412	11.94
413	10.3
414	9.62
415	10.3
416	11.66
417	10.54
418	12.37
419	17.67
420	13.11
421	16.92
422	9.69
423	16.92
424	12.73
425	15.71
426	16.19
427	14.3
428	16.28
429	16.68
430	16.18
431	21.35
432	23
433	22.44
434	24.94
435	18.15
436	23.44
437	30.65
438	30.53
439	32.42
440	30.95
441	33.61
442	37.6
443	36.37
444	37.42
445	43.42
446	39.73
447	47.07
448	53.56
449	66.84
450	72.87
451	85.11
452	97.77
453	120.19
454	144.45
455	151.96
456	174.56
457	186.81
458	191.68
459	206.1
460	198.56
461	200.42
462	193.24
463	200.4
464	204.54
465	201.68
466	210.63
467	218.19
468	220.93
469	215.65
470	223.26
471	230.13
472	231.38
473	224.63
474	239.02
475	230.27
476	224.22
477	216.9
478	224.77
479	232.15
480	232.97
481	230.77
482	236.32
483	230.77
484	224.55
485	218.54
486	221.35
487	210.88
488	222.71
489	215.06
490	203.71
491	195.89
492	194.85
493	182.4
494	188.36
495	191.7
496	192.25
497	188.58
498	184.92
499	174.52
500	176.29
501	168.3
502	160.25
503	158.91
504	152.75
505	155.26
506	156.49
507	145.67
508	138.79
509	135.01
510	129.4
511	126.13
512	116.93
513	117.54
514	111.88
515	107.79
516	110.91
517	102.29
518	95.03
519	87.75
520	86.69
521	81.7
522	77.34
523	70.32
524	68.77
525	68.88
526	60.05
527	56.29
528	51.57
529	50.91
530	50.73
531	45.36
532	38.55
533	38.06
534	43.32
535	37.87
536	34.04
537	31.67
538	34.79
539	35.23
540	31.82
541	31.11
542	34.88
543	31.72
544	27.85
545	27.34
546	29.95
547	26.4
548	29.14
549	32.67
550	26.72
551	28.36
552	25.59
553	32.06
554	29.41
555	29.11
556	29.87
557	29.91
558	27.85
559	24.62
560	25.78
561	23.84
562	20.65
563	24.31
564	22.65
565	20.72
566	24.3
567	21.66
568	26.32
569	21.89
570	19.82
571	20.47
572	20.72
573	21.67
574	21.13
575	20.1
576	18.56
577	20.36
578	23.33
579	14.88
580	17.76
581	13.82
582	15.24
583	17.32
584	16.77
585	15.35
586	16.9
587	17.47
588	14.73
589	18.37
590	19.82
591	16.76
592	11.36
593	11.73
594	15.12
595	15.49
596	14.41
597	9.7
598	12.42
599	15.96
600	16.01
601	15.3
602	13.27
603	4.74
604	13.67
605	11.42
606	14.12
607	13.4
608	12.83
609	11.93
610	10.74
611	9.66
612	10.55
613	10.07
614	8.52
615	10.17
616	7.55
617	10.66
618	7.39
619	4.59
620	10.53
621	6.63
622	10.54
623	8.95
624	10.77
625	7.64
626	7.62
627	8.65
628	4.69
629	8.44
630	5.71
631	5.59
632	6.16
633	4.8
634	5.28
635	8.51
636	5.71
637	8.59
638	5.04
639	4.95
640	5.93
641	7.53
642	5.64
643	4.92
644	10.81
645	4.69
646	5.66
647	4.87
648	4.74
649	3.25
650	3.63
651	2.21
652	4.58
653	4.35
654	3.44
655	1.64
656	1.61
657	2.52
658	0.6
659	4.63
660	4.37
661	3.02
662	0.26
663	2.54
664	4.62
665	0.74
666	2.55
667	3.45
668	7.28
669	0.05
670	-1.17
671	-1.42
672	3.75
673	3.83
674	4.57
675	-1.95
676	0.94
677	-0.18
678	2.59
679	2.71
680	1.85
681	-1.39
682	-1.73
683	0.53
684	1.52
685	3.17
686	0.76
687	-0.34
688	-1.96
689	0.66
690	-0.94
691	4.51
692	3.59
693	0.67
694	0.65
695	-0.31
696	1.59
697	2.71
698	-0.82
699	-7.32
700	-3.89
701	-0.32
702	-0.47
703	-1.12
704	-1.18
705	-2.58
706	1
707	-0.43
708	-3.07
709	-3.36
710	-2.59
711	0.63
712	0.36
713	0.17
714	1.13
715	-0.59
716	0.63
717	1.17
718	-3.26
719	-2.54
720	-1.88
721	0.5
722	-4.38
723	-1.95
724	-0.79
725	1.19
726	-3.94
727	0.4
728	-1.6
729	0.28
730	1.89
731	-0.37
732	-2.57
733	-1.04
734	-3.79
735	1.3
736	-1.52
737	-3.72
738	0.66
739	-3.36
740	-3.3
741	-0.39
742	-3.25
743	-0.48
744	-3.25
745	1.02
746	-3.02
747	-3.16
748	-0.99
749	-2.18
750	-2.69
751	-1.86
752	0.2
753	-2.3
754	-2.38
755	2.51
756	-0.86
757	-1.76
758	-2.95
759	-5.45
760	2.69
761	-1.16
762	0.7
763	-2.87
764	-2.98
765	-2.16
766	-3.89
767	-4.35
768	-0.49
769	-3.27
770	-1.32
771	0.32
772	-2.34
773	-3.34
774	-2.34
775	-3.07
776	-2.77
777	-4.38
778	-1.22
779	-2.21
780	-1.44
781	-5.29
782	-3.02
783	-3.2
784	-4.17
785	-3.63
786	-3.44
787	-2.9
788	-0.65
789	-2.62
790	-3.06
791	-7.87
792	-6.27
793	-4.32
794	-2.41
795	-2.82
796	1.64
797	-1.68
798	-3.38
799	-1.54
800	-1.68
801	0.59
802	-1.86
803	-2.9
804	-1.26
805	-2.26
806	-4.86
807	-2.82
808	-2.35
809	0.74
810	-0.38
811	-1.82
812	-2.76
813	-1.02
814	-2.18
815	-2.13
816	-3.04
817	0.54
818	-1.05
819	-2.39
820	-2.32
821	-2.38
822	-6.58
823	-3.93
824	-6.18
825	-1.43
826	-2.9
827	-6.29
828	-1.43
829	-2.64
830	-2.28
831	-1.39
832	-5.19
833	-1.1
834	-1.43
835	-5.89
836	-1.77
837	-3.45
838	-1.97
839	-1.81
840	-3.32
841	-0.93
842	-4.58
843	-0.16
844	-5.94
845	-3.32
846	-5.13
847	-4.2
848	-2.59
849	-4.19
850	-0.35
851	-4.01
852	-7.35
853	-3.96
854	-2.22
855	-6.55
856	-3.32
857	-4.05
858	-3.15
859	-6.25
860	-1.26
861	-2.74
862	-7.03
863	-2.49
864	-3.43
865	-2.94
866	-4.84
867	-4.55
868	-4.51
869	-2.45
870	-4.56
871	-3.85
872	-4.08
873	-2.6
874	-3.7
875	-3.38
876	-3.31
877	-1.17
878	-6.9
879	-5.52
880	-4.77
881	-3.81
882	-3.48
883	-4.36
884	-3.99
885	-0.74
886	-6.09
887	-1.43
888	-3.52
889	-4.99
890	-4.36
891	-2.81
892	-3.02
893	-1.38
894	-6.35
895	-4.27
896	-2.99
897	-4.75
898	-2.79
899	-0.38
900	-2.73
901	-7.46
902	-4.34
903	-1.33
904	-0.93
905	-7.07
906	-7.16
907	-2.93
908	-2.72
909	-4.36
910	-3.62
911	-3.38
912	-3.73
913	-3.18
914	-3.06
915	-4.74
916	-5.19
917	-4.59
918	-3.15
919	-4.81
920	-4.33
921	-0.8
922	-1.68
923	-6.31
924	-0.92
925	-4.11
926	-6.11
927	-5.89
928	0.79
929	-3.84
930	-0.67
931	-4.11
932	-5.93
933	-4.33
934	-4.09
935	-5.02
936	-3.93
937	-4.69
938	-4.33
939	-6.23
940	-4.79
941	-6.18
942	-4.81
943	-4.47
944	-2.65
945	-5.43
946	-2.71
947	-2.54
948	-4.45
949	-5.32
950	-0.24
951	-1.79
952	-4.29
953	-3.13
954	-4.74
955	-2.25
956	-6.25
957	-4.42
958	-7.18
959	-2.47
960	-1.57
961	-9.4
962	-3.12
963	-3.33
964	-2.12
965	-0.43
966	-1.87
967	-3.62
968	-2.25
969	-3.8
970	-5.91
971	-1.25
972	-0.19
973	-2.77
974	-5.21
975	-4.2
976	-2.74
977	-3.96
978	-4.92
979	-6.4
980	-1.34
981	-4.12
982	-3.98
983	-3.4
984	-3.46
985	-4.33
986	-4.76
987	-7.45
988	-8.35
989	-1.99
990	-5.1
991	-5.65
992	-3.71
993	-3.61
994	-4.5
995	-1.22
996	-2.33
997	-5.77
998	-6
999	-5.94
1000	-4.72
