Data from USB2G577181__11__16-13-48-998.txt Node

Date: Tue Nov 15 16:13:48 PST 2022
User: gprabhakar
Spectrometer: USB2G57718
Scans to average: 1
Trigger mode: 4
Integration Time (sec): 1.000000E-1
Electric dark correction enabled: true
Boxcar width: 0
XAxis mode: Wavelengths
Number of Pixels in Spectrum: 651
>>>>>Begin Spectral Data<<<<<
350	-0.05
351	-2.12
352	0.47
353	-0.94
354	2.64
355	-2.78
356	-2.33
357	-1.29
358	-1.75
359	-0.26
360	0.2
361	-2.94
362	-3.2
363	-2.1
364	1.86
365	0.16
366	-0.36
367	-3.01
368	0.63
369	-1.96
370	1.21
371	-1.77
372	1.96
373	1.02
374	-3.37
375	3.18
376	0.8
377	0.53
378	0.41
379	-2.24
380	0.97
381	5.6
382	-0.52
383	-0.29
384	0.91
385	0.22
386	2.04
387	0.12
388	-1.05
389	2.06
390	0.52
391	-0.37
392	2.07
393	2.35
394	2.67
395	-0.84
396	2.36
397	0.75
398	3.98
399	-0.34
400	-0.78
401	-0.12
402	-0.05
403	3.51
404	4.79
405	2.11
406	-0.07
407	2.44
408	0.08
409	4.18
410	0.67
411	0.16
412	2.32
413	2.66
414	0.65
415	2.09
416	2.1
417	1.57
418	5.23
419	1.98
420	1.57
421	1.79
422	2.04
423	1.95
424	5
425	0.04
426	4.21
427	3.54
428	1.1
429	-9.44
430	2.1
431	3.35
432	3.27
433	4.35
434	2.1
435	-1.88
436	2.6
437	-0.45
438	1.06
439	4.02
440	4.79
441	4.4
442	2.9
443	5.62
444	1.85
445	2.94
446	5.26
447	2.17
448	5.93
449	4.83
450	6.36
451	6.05
452	4.04
453	4.82
454	4.96
455	3.96
456	2.75
457	5.82
458	2.07
459	0.49
460	6.78
461	4.19
462	6.05
463	5.98
464	7.68
465	3.07
466	0.85
467	3.32
468	5.06
469	3.84
470	7.9
471	3.98
472	5.11
473	7.77
474	3.63
475	5.22
476	2.93
477	2.63
478	3.82
479	5.62
480	1.65
481	7.32
482	6.35
483	3.01
484	6.52
485	5.54
486	6.59
487	5.08
488	6.74
489	4.96
490	5.44
491	4.2
492	3.84
493	6.52
494	3.99
495	4.19
496	4.42
497	6.64
498	2.13
499	6.16
500	4.36
501	6.2
502	7
503	3.87
504	6.47
505	4.77
506	7.4
507	5.87
508	1.8
509	7.13
510	5
511	3.27
512	5.47
513	7.19
514	7.83
515	7.12
516	6.87
517	4.59
518	3.01
519	8.1
520	10.31
521	3.76
522	6.83
523	8.23
524	7.7
525	7.58
526	5.97
527	6.15
528	5.14
529	8.19
530	6.31
531	5.13
532	3.04
533	3.82
534	8.65
535	7.72
536	6.86
537	6.07
538	10.5
539	6.45
540	9.15
541	7.14
542	3.96
543	4.89
544	7.64
545	9.08
546	5.17
547	9.34
548	9.93
549	6.19
550	9.39
551	9.96
552	13.73
553	8.33
554	9.58
555	11.41
556	10.35
557	11
558	11.54
559	9.09
560	8.03
561	9.94
562	9.82
563	12.49
564	9.4
565	10.22
566	10.23
567	11.14
568	14.24
569	13.67
570	14.03
571	11.5
572	14.46
573	13.02
574	13.37
575	12.48
576	16.32
577	14.01
578	13.99
579	14.47
580	16.57
581	15.09
582	18.07
583	17.23
584	17.12
585	19.52
586	19.96
587	22.98
588	20.75
589	21.63
590	25.24
591	27
592	27.74
593	35.09
594	41.26
595	52.19
596	56.82
597	76.03
598	91.55
599	109
600	116.25
601	146.82
602	165.93
603	199.65
604	221.5
605	244.91
606	284.65
607	318.89
608	358.61
609	415.35
610	462.6
611	533.71
612	588.15
613	659.14
614	762.61
615	849.81
616	936.59
617	1045.32
618	1170.7
619	1290.55
620	1418.49
621	1603.48
622	1776.24
623	1969.44
624	2170.25
625	2300.81
626	2346.37
627	2228.13
628	2002.13
629	1661.05
630	1350.69
631	1021.79
632	817.17
633	667.18
634	532.6
635	448.8
636	373.8
637	305.24
638	269.61
639	236.37
640	204.09
641	165.64
642	146.11
643	120.88
644	100.81
645	88.83
646	68.11
647	61.96
648	56.92
649	48.25
650	43.74
651	46.02
652	32.12
653	35.16
654	32.31
655	26.88
656	26.44
657	25.99
658	19.09
659	16.73
660	15.48
661	16.25
662	15.45
663	12.97
664	12.45
665	10.52
666	14.26
667	11.55
668	10.01
669	13.1
670	12.59
671	11.04
672	10.99
673	10.89
674	13.01
675	6.14
676	6.64
677	6.22
678	8.93
679	11.44
680	9.95
681	8.29
682	9.14
683	7.89
684	8.33
685	7.04
686	4.88
687	2.91
688	6.13
689	5.34
690	9.64
691	4.93
692	6.13
693	8.07
694	6.07
695	3.03
696	3.99
697	2.53
698	6.63
699	5.26
700	7.92
701	7.34
702	8.91
703	3.16
704	2.12
705	2.02
706	3.24
707	6.04
708	7.24
709	6.67
710	4.79
711	4.26
712	1.61
713	5.08
714	3.36
715	3.49
716	2.24
717	4.46
718	4.77
719	0.44
720	0.78
721	1.75
722	3.19
723	5.54
724	3.49
725	6.2
726	1.23
727	2.11
728	2.78
729	-0.93
730	0.28
731	2.39
732	3.44
733	1.94
734	2.46
735	2.2
736	-0.85
737	2.12
738	2.98
739	2.06
740	3
741	2.89
742	1.93
743	1.66
744	0.33
745	0.58
746	1.74
747	3.14
748	3.91
749	2.92
750	2.79
751	2.58
752	3.19
753	1.04
754	2.7
755	1.13
756	-2.75
757	0.72
758	0.88
759	3.04
760	1.12
761	3.49
762	1.42
763	2.58
764	-0.59
765	0.92
766	0.04
767	0.87
768	1.15
769	0.71
770	1.65
771	-0.09
772	3.16
773	1.06
774	-2
775	-2.27
776	1.84
777	3.7
778	-1.6
779	0.31
780	1.88
781	2
782	3.66
783	0.12
784	2.13
785	1.12
786	-0.04
787	1.07
788	3.32
789	1.97
790	2.84
791	4.31
792	-3.01
793	3.09
794	2.8
795	0.36
796	-0.37
797	-0.76
798	1.06
799	-0.84
800	-2.97
801	0.11
802	2.59
803	1.67
804	-1.05
805	-1.28
806	0.35
807	-0.94
808	-1.94
809	-0.25
810	-5.47
811	-2.43
812	-0.81
813	-3.28
814	0
815	2.02
816	0.94
817	1.07
818	-0.09
819	-1.5
820	0.18
821	0.07
822	2.19
823	2.61
824	3.1
825	1.73
826	-0.71
827	2.16
828	0.05
829	-2.03
830	-1.56
831	3.16
832	1.17
833	-3.17
834	-2.33
835	1.06
836	-0.6
837	1.03
838	-0.3
839	-3.77
840	-2.16
841	-0.68
842	-0.79
843	0.03
844	0.28
845	-3.99
846	-0.95
847	-3.89
848	-0.51
849	-2.71
850	0.51
851	-1.29
852	-2.79
853	1.92
854	1.06
855	-1.48
856	1.09
857	-0.74
858	0.99
859	-0.48
860	1.21
861	0.3
862	-2.96
863	-1.26
864	-1.48
865	-0.54
866	1.57
867	-2.22
868	2.23
869	0.04
870	-0.97
871	-1.87
872	0.22
873	-3.77
874	-0.54
875	0.08
876	-0.94
877	2.03
878	-0.46
879	-1.13
880	-0.87
881	-3.41
882	2.59
883	-2.91
884	-1.28
885	1.74
886	0.31
887	-0.23
888	-2.58
889	-0.39
890	-1.96
891	-3.38
892	-1.28
893	0.28
894	0.6
895	-0.45
896	-2.48
897	-1.17
898	-3.31
899	3.17
900	1.09
901	1.89
902	-0.67
903	-1.93
904	-0.46
905	-0.45
906	1.83
907	-0.4
908	1.61
909	-1.68
910	-1.91
911	-1.96
912	1.05
913	-1.98
914	0.06
915	-1.97
916	0.04
917	1.2
918	0.34
919	-0.43
920	1.96
921	-1.15
922	0.49
923	-1.85
924	-2.65
925	-0.9
926	-1.97
927	-0.42
928	0.96
929	-1.58
930	-5.55
931	-0.61
932	-1.32
933	-0.93
934	0.58
935	-2.56
936	2.01
937	0.19
938	1.06
939	-2.58
940	-1.06
941	-3
942	-0.77
943	-1.84
944	-1.47
945	0.65
946	-0.44
947	-2.31
948	0.44
949	-0.77
950	-0.03
951	-0.66
952	0.87
953	2.48
954	-0.51
955	-3.84
956	-0.48
957	-1.87
958	2.3
959	1.33
960	-2.89
961	-0.14
962	-1.54
963	-1.94
964	-2.92
965	0.97
966	1.13
967	0.95
968	-2.39
969	-1.32
970	0.71
971	1.8
972	0.75
973	-0.91
974	-0.66
975	-0.38
976	0.43
977	0.47
978	-3.77
979	-1.86
980	1.16
981	-1.01
982	-1.26
983	-4
984	-2.01
985	0.06
986	0.33
987	-1.91
988	-0.75
989	-1.78
990	-1.46
991	-0.72
992	-1.61
993	-2.33
994	-2.07
995	0.44
996	-1.94
997	-1.05
998	0.57
999	0.08
1000	-0.42
