Data from USB2G577181__1__16-16-54-777.txt Node

Date: Thu Nov 17 16:16:54 PST 2022
User: gprabhakar
Spectrometer: USB2G57718
Scans to average: 1
Trigger mode: 4
Integration Time (sec): 1.000000E-1
Electric dark correction enabled: true
Boxcar width: 0
XAxis mode: Wavelengths
Number of Pixels in Spectrum: 651
>>>>>Begin Spectral Data<<<<<
350	3.75
351	0.25
352	-0.93
353	-3.35
354	0.28
355	0.17
356	-0.51
357	0.39
358	2.28
359	2.33
360	-4.56
361	-0.44
362	-1.4
363	2.32
364	1.74
365	-0.13
366	0.41
367	1.78
368	1.5
369	-3.07
370	1.38
371	1.63
372	0.7
373	-2.64
374	-0.21
375	1.69
376	-2.18
377	1.33
378	0.94
379	1.94
380	0.63
381	1.4
382	-2.42
383	3.85
384	1.2
385	3.52
386	3.62
387	0.08
388	1.21
389	3.64
390	9.55
391	10.09
392	6.7
393	12.11
394	14.06
395	13.95
396	14.28
397	14.23
398	13.96
399	17.4
400	12.74
401	14.77
402	15.62
403	15.9
404	15.58
405	13.73
406	13.41
407	13.88
408	15.78
409	11.46
410	14.11
411	12.7
412	9.98
413	13.86
414	13.35
415	13.39
416	15.67
417	10.89
418	13.33
419	11.67
420	10.45
421	12.19
422	8.65
423	10.16
424	8
425	10.51
426	12.3
427	11.42
428	11.62
429	11.53
430	12.57
431	17.85
432	13.2
433	12.18
434	14.09
435	13.2
436	17.7
437	10.33
438	15.7
439	11.67
440	15.09
441	14.65
442	15.13
443	13.05
444	14.15
445	14.4
446	17.55
447	12.94
448	17.15
449	11.84
450	14.19
451	14.61
452	18.34
453	14.5
454	18.94
455	21.3
456	20.54
457	16.48
458	17.64
459	19.66
460	19.39
461	18.75
462	22.47
463	23.39
464	19.93
465	24.64
466	22.19
467	21.79
468	21.67
469	22.24
470	24.63
471	24.61
472	21.67
473	25.44
474	25.04
475	22.55
476	28.7
477	21.2
478	22.41
479	26.37
480	17.98
481	25.76
482	21.12
483	16.35
484	17.38
485	19.99
486	20.72
487	12.74
488	13.73
489	18.59
490	12.47
491	8.63
492	14.16
493	13.75
494	13.19
495	10.58
496	11.08
497	15.82
498	15.62
499	12.88
500	4.58
501	12.01
502	14.32
503	12.42
504	8.97
505	10.73
506	10.89
507	11.44
508	15.68
509	12.73
510	16.42
511	12.56
512	13.33
513	14.02
514	12.67
515	11.66
516	12.6
517	5.63
518	15.87
519	9.66
520	9.48
521	14.8
522	9.5
523	10.89
524	14.64
525	8.71
526	8.36
527	9.66
528	12.56
529	11.4
530	9.74
531	7.08
532	8.76
533	11.7
534	8.59
535	6.77
536	7.97
537	7.64
538	8.97
539	8.51
540	8.82
541	11.22
542	8.36
543	7.41
544	8.51
545	9.38
546	7.71
547	7.68
548	8.52
549	8.57
550	6.97
551	7.48
552	5.63
553	8.89
554	7.04
555	4.15
556	5.78
557	-0.37
558	5.22
559	8.02
560	5.72
561	5.43
562	5.59
563	6.46
564	3.2
565	7.09
566	4.49
567	6.7
568	6.99
569	8.84
570	4.52
571	4.03
572	3.97
573	3.78
574	2.9
575	6.02
576	4.31
577	6.51
578	8.74
579	2.52
580	4.31
581	4.32
582	5.11
583	3.77
584	4.71
585	1.43
586	4.09
587	2.3
588	4.23
589	3.65
590	3.01
591	3.56
592	2.11
593	5.06
594	6.94
595	3.93
596	2.56
597	0.61
598	4.54
599	2.03
600	3.34
601	3.75
602	2.65
603	1.56
604	2.62
605	0.68
606	1.61
607	0.99
608	2.74
609	2.78
610	0.61
611	5.63
612	0.83
613	2.37
614	2.99
615	3.03
616	3.52
617	2.26
618	4.65
619	3.46
620	0.87
621	0.9
622	3.34
623	1.59
624	-3.4
625	2.99
626	-0.32
627	-0.45
628	1.37
629	4.66
630	0.49
631	0.64
632	1.65
633	0.63
634	7.55
635	2.44
636	1.61
637	3.14
638	1.76
639	4.76
640	5.21
641	-1.19
642	-0.65
643	0.45
644	-0.39
645	0.59
646	0.67
647	1.67
648	-0.41
649	1.51
650	-0.19
651	0.26
652	0.25
653	2.36
654	1.1
655	3.33
656	0.33
657	3.53
658	3.6
659	-2.88
660	2.02
661	-0.64
662	2.92
663	0.99
664	1.39
665	1.92
666	4.19
667	-0.9
668	-2.69
669	1.56
670	3.67
671	0.56
672	-5.34
673	1.5
674	-0.85
675	1.4
676	-0.02
677	-0.8
678	0.47
679	-1.06
680	-1.46
681	0.99
682	0.46
683	7.65
684	-4.07
685	1.37
686	-1.44
687	2.03
688	-0.33
689	-0.1
690	1.65
691	1.39
692	-3.31
693	1.64
694	-0.27
695	1.7
696	0.77
697	1.03
698	5.4
699	1.08
700	1.72
701	-0.18
702	2.04
703	-0.01
704	2.89
705	-1.28
706	1.38
707	0.14
708	0.61
709	-0.81
710	-0.69
711	0.45
712	4.01
713	0.89
714	1.06
715	1.05
716	-0.1
717	-1.91
718	-3.42
719	-0.52
720	0.89
721	1.63
722	0.33
723	-0.48
724	-1.4
725	2.89
726	-1.45
727	-0.1
728	-1.21
729	-1.99
730	1.85
731	0.18
732	0.74
733	-0.45
734	1.16
735	-0.33
736	0.56
737	0.55
738	2.62
739	-0.35
740	1.68
741	-1.51
742	1.01
743	1.63
744	2.62
745	-1.68
746	-2.92
747	0.41
748	1.1
749	-2.18
750	1.3
751	-0.02
752	1.17
753	0.6
754	-0.43
755	-0.09
756	-1.56
757	-1.18
758	-0.26
759	-2.35
760	-0.38
761	-3.49
762	-2.13
763	0
764	-0.4
765	0.21
766	-3.44
767	-0.52
768	-0.24
769	-4.01
770	-2.77
771	0.77
772	2.46
773	-1.35
774	-1.2
775	2.41
776	-0.73
777	-1.37
778	0.69
779	0.86
780	-0.87
781	-0.79
782	0.02
783	0.47
784	-2.24
785	1.59
786	3.16
787	-4.93
788	0.91
789	1.2
790	2.43
791	0.21
792	1.38
793	-0.28
794	-0.35
795	0.48
796	3.06
797	-1.59
798	1.06
799	0.9
800	3.46
801	-1.36
802	3.52
803	1.68
804	0.97
805	-0.42
806	-0.28
807	-1.94
808	-0.36
809	-2.15
810	-0.36
811	-3.25
812	6.18
813	2.71
814	-0.42
815	-0.43
816	-1.9
817	2.54
818	0.42
819	-0.08
820	-2.64
821	0.72
822	0.75
823	-1.8
824	1.79
825	3.52
826	1.03
827	-2.18
828	-2.47
829	0.6
830	0.98
831	0.65
832	-2.48
833	-4.13
834	-4.95
835	0.73
836	-0.29
837	0.53
838	2.81
839	-0.05
840	0.24
841	-2.2
842	6.35
843	-2.75
844	-0.79
845	-1.61
846	-2.44
847	1.68
848	0.28
849	0.41
850	2.16
851	1.94
852	-0.51
853	-2.21
854	0.28
855	1.6
856	1.53
857	-0.87
858	-0.48
859	0.31
860	1.91
861	-0.48
862	-5.63
863	0.01
864	2.31
865	-0.36
866	0.69
867	2.5
868	1.81
869	0.32
870	-0.37
871	2.25
872	-0.39
873	-0.57
874	0.43
875	-2.53
876	-1.35
877	0.29
878	-0.64
879	-3.22
880	1.43
881	0.19
882	1.68
883	-0.29
884	1.35
885	3.02
886	-0.11
887	-2.39
888	1.75
889	-2.01
890	1.61
891	-1.52
892	1.65
893	2.65
894	2.2
895	2.07
896	1.19
897	1.21
898	2.17
899	1.51
900	-0.35
901	-1.99
902	3.13
903	-1.11
904	1.35
905	-0.25
906	-3.21
907	2.14
908	3.2
909	-2.2
910	1.64
911	-0.25
912	0.52
913	3.58
914	0.9
915	0.24
916	2.77
917	-1.37
918	-0.68
919	-0.15
920	0.54
921	-1.02
922	1.77
923	1.64
924	-0.33
925	-1.22
926	1.95
927	0.62
928	-2.28
929	2.02
930	0.16
931	-0.11
932	1.67
933	1.65
934	2.12
935	1.41
936	-2.1
937	0.79
938	1.63
939	1.41
940	2.18
941	-1.81
942	0.5
943	-0.44
944	0.42
945	0.62
946	-0.78
947	-2.09
948	2.7
949	-1.54
950	-1.47
951	-1.4
952	1.63
953	0.05
954	-0.63
955	-2.14
956	0.33
957	-0.88
958	0.89
959	0.36
960	-2.63
961	1.43
962	-0.31
963	0.64
964	1.03
965	5.6
966	-1.62
967	0.72
968	-0.64
969	0.78
970	-1.03
971	-2.78
972	-0.32
973	-0.37
974	-0.34
975	1.95
976	-2.63
977	0.71
978	0.46
979	0.55
980	0.51
981	0.5
982	2.94
983	0.66
984	-2.48
985	0.64
986	0.46
987	2.78
988	-1.18
989	-1.45
990	1.04
991	-1.1
992	1.12
993	1.91
994	0.44
995	0.58
996	-2.36
997	0.02
998	0.79
999	1.06
1000	0.48
