Data from USB2G577181__16__16-24-11-733.txt Node

Date: Tue Nov 15 16:24:11 PST 2022
User: gprabhakar
Spectrometer: USB2G57718
Scans to average: 1
Trigger mode: 4
Integration Time (sec): 1.000000E-1
Electric dark correction enabled: true
Boxcar width: 0
XAxis mode: Wavelengths
Number of Pixels in Spectrum: 651
>>>>>Begin Spectral Data<<<<<
350	3.88
351	-2.1
352	-1.31
353	-1.98
354	1.51
355	0.79
356	-0.84
357	0.03
358	0.79
359	2.19
360	2.29
361	2.07
362	-0.69
363	-0.26
364	0.13
365	0.95
366	-1.79
367	3.39
368	4.01
369	1.38
370	1.47
371	0.37
372	3.09
373	1.5
374	1.97
375	1.94
376	3.14
377	2.62
378	3.5
379	0.78
380	-0.59
381	0.08
382	1.27
383	1.29
384	3.02
385	3.21
386	1.03
387	7.43
388	6.62
389	0.06
390	6.59
391	4.44
392	3.13
393	8.08
394	10.85
395	7.19
396	4.99
397	6.92
398	3.91
399	9.68
400	7.31
401	7.63
402	7.04
403	6.84
404	8.64
405	11.24
406	10.3
407	11.08
408	11.49
409	9.59
410	12.03
411	12.73
412	9.93
413	8.55
414	4.33
415	12.85
416	16.68
417	12.7
418	13.75
419	15.05
420	14.15
421	14.77
422	16.06
423	18.89
424	19.07
425	18.97
426	19.74
427	21.29
428	18.16
429	22.08
430	21.68
431	17.95
432	18.34
433	21.39
434	24.06
435	25
436	28.27
437	27.36
438	26.16
439	26.36
440	31.35
441	30.94
442	29.81
443	32.48
444	30.38
445	29.35
446	33.55
447	34.84
448	32.79
449	38.17
450	31.18
451	35.11
452	34.8
453	37.74
454	38.93
455	38.79
456	38.94
457	35.66
458	38.04
459	41.09
460	43.03
461	42.76
462	41.53
463	42.11
464	44.42
465	46.03
466	49.35
467	48.48
468	52.08
469	54.43
470	55.81
471	57.34
472	61.88
473	62.77
474	62.83
475	66.01
476	66.95
477	70.54
478	76.86
479	80.72
480	76.05
481	88.22
482	87
483	93.37
484	97.56
485	99.16
486	106.16
487	94.04
488	99.95
489	115.02
490	109.57
491	107.34
492	106.6
493	110.59
494	112.3
495	122.61
496	126.79
497	125.13
498	126.62
499	131.13
500	130.75
501	143.03
502	145.34
503	138.55
504	137
505	136.08
506	143.62
507	146.42
508	149.36
509	159.63
510	146.57
511	154.22
512	150.05
513	158.9
514	161.18
515	163.15
516	163.51
517	162.34
518	168.07
519	160.96
520	165.94
521	166.12
522	169.95
523	175.44
524	182.22
525	186.59
526	194.08
527	193.24
528	203.97
529	212.14
530	216.25
531	221.74
532	226.77
533	227.18
534	240.87
535	253.6
536	253.66
537	251.08
538	264.46
539	267.57
540	273.03
541	273.95
542	282.7
543	279.84
544	296.44
545	302.6
546	303.6
547	329.86
548	314.9
549	328.36
550	327.29
551	344.44
552	353.53
553	353.48
554	352.82
555	363.86
556	367.66
557	383.35
558	385.93
559	400.88
560	426.86
561	431.88
562	450.52
563	458.44
564	477.18
565	483.57
566	492.6
567	508.16
568	529.36
569	529.33
570	536.18
571	535.55
572	542.75
573	551.43
574	553.93
575	553.73
576	570.46
577	576.59
578	580.44
579	626.95
580	655.49
581	667.18
582	674.93
583	672.9
584	669.06
585	684.6
586	669.06
587	677.99
588	686.16
589	707.39
590	704.8
591	697.37
592	687.35
593	708.94
594	723.43
595	719.66
596	724.31
597	690.22
598	653.02
599	568.78
600	505.07
601	407
602	288.21
603	181.29
604	134.25
605	114.21
606	106.29
607	99.89
608	93.8
609	89.04
610	87.24
611	75.01
612	74.78
613	74.05
614	63.08
615	56.19
616	53.11
617	50.01
618	48.23
619	45.06
620	40.25
621	37.8
622	40.16
623	35.6
624	39.43
625	38.72
626	37.83
627	28.07
628	32.91
629	30.05
630	32.13
631	31.75
632	28.2
633	30.46
634	26.43
635	26.86
636	27.05
637	23.93
638	23.9
639	27.72
640	21.25
641	22.2
642	22.7
643	18.75
644	19.79
645	17.73
646	20.05
647	19.57
648	17.72
649	19.02
650	16.44
651	14.2
652	9.3
653	11.91
654	12.43
655	13.4
656	13.31
657	14.4
658	10.07
659	8.9
660	12.37
661	12.96
662	12.62
663	10.78
664	7.13
665	8.29
666	10.54
667	8.58
668	7.68
669	6.39
670	1.9
671	11.23
672	10.89
673	9.81
674	8.26
675	4.85
676	9.12
677	7.96
678	10.86
679	8.05
680	6.63
681	6.61
682	3.89
683	3.31
684	5.33
685	4.98
686	4.97
687	1.36
688	2.5
689	5.03
690	3.02
691	2.05
692	3.04
693	-0.96
694	3.97
695	-0.01
696	3.93
697	3.37
698	4.28
699	2.53
700	6.8
701	-1.41
702	0.56
703	1.64
704	5.51
705	3.07
706	4.39
707	1.68
708	1.91
709	3.81
710	2.47
711	2.56
712	-0.37
713	2.88
714	0.11
715	-0.56
716	3.2
717	4.49
718	2.01
719	-0.83
720	2.94
721	6.5
722	-0.61
723	0.38
724	-1.15
725	-0.32
726	-2.26
727	3.43
728	-2.25
729	0.52
730	-2.03
731	0.12
732	0.43
733	-1.94
734	-2.05
735	-3.41
736	0.22
737	2.03
738	-1.94
739	-2.95
740	-0.98
741	-3.05
742	0.8
743	-2.92
744	-2.92
745	-2.53
746	-0.21
747	-0.8
748	-2.2
749	-3.73
750	-1.19
751	-1.94
752	0.07
753	-0.52
754	-0.84
755	-3.98
756	-2.24
757	-0.28
758	-1.97
759	-2.05
760	0.94
761	-3.04
762	-1.78
763	-1.58
764	-3.44
765	-0.99
766	-0.84
767	-2.72
768	-4.27
769	-3.28
770	-2.37
771	-1.48
772	0.04
773	1.03
774	1.04
775	-2.28
776	-7.57
777	-3.17
778	-2.22
779	1.47
780	-1.29
781	-3.29
782	-4.44
783	-0.96
784	-1.04
785	-2.89
786	-3.01
787	-4.82
788	-3.47
789	0.19
790	-2.38
791	-0.13
792	-4.73
793	-1.98
794	-0.65
795	0.45
796	-1.51
797	-1.95
798	-1.27
799	-5.21
800	-2.61
801	-2.92
802	-6.68
803	-2.43
804	-2.96
805	-2.61
806	-2.96
807	-6.11
808	-1.97
809	-2.85
810	-1.64
811	-1.78
812	-4.94
813	-1.66
814	-5.9
815	-1.88
816	-5.27
817	-3.19
818	-4.1
819	-2.02
820	-4.78
821	-1.98
822	-3.09
823	-2.38
824	-3.76
825	-4.28
826	-3.22
827	4.18
828	-8.29
829	-5.45
830	-2.82
831	-3.42
832	-3.94
833	-1.09
834	-1.81
835	-1.83
836	-3.84
837	-5.3
838	-3.91
839	-2.47
840	-2.08
841	-3.91
842	-1.94
843	-4.15
844	-3.22
845	-4.26
846	-3.84
847	-4.94
848	-3.87
849	-4.92
850	-3.51
851	-1.42
852	-5.03
853	-4.19
854	-4.48
855	-2.14
856	-6.88
857	-4.67
858	-3.94
859	-2.61
860	-5.86
861	-0.48
862	-2.8
863	-2.36
864	-6.96
865	-3.14
866	-2.93
867	-4.1
868	-2.83
869	-2.35
870	-3.76
871	-11.18
872	-8.18
873	-0.58
874	0.43
875	-5.48
876	-2.97
877	-3.75
878	-2.77
879	-1.18
880	-2.85
881	-4.96
882	-4.94
883	-3.06
884	-5.47
885	-2.78
886	-4.45
887	-4.05
888	-2.22
889	-3.31
890	-5.04
891	-5.55
892	-3.8
893	-5.99
894	-2.79
895	-4.19
896	-4.08
897	-5.48
898	-6.91
899	-5.75
900	-3.84
901	-2.12
902	-3.2
903	-2.88
904	-2.21
905	-7.39
906	-6.46
907	-5.73
908	-5.35
909	-6.91
910	-6
911	-3.24
912	-3.18
913	-4.88
914	-4.43
915	-6.46
916	-4.62
917	-4.91
918	-3.85
919	-3.4
920	-8.97
921	-5.13
922	-5.74
923	-5.8
924	-2.04
925	-3.07
926	-3.39
927	-6.76
928	-4.03
929	-5.9
930	-7.33
931	-4.5
932	-3.46
933	-6.92
934	-6.81
935	-7.39
936	-4.9
937	-1.62
938	-2.96
939	-3.77
940	-3.59
941	-5.17
942	-5.28
943	-5.9
944	-5.34
945	-3.21
946	-2.22
947	-6.27
948	-2.33
949	-6.19
950	-1.2
951	-8.12
952	-5.81
953	-6.66
954	-4.21
955	-2.52
956	-7.32
957	-4.76
958	-7.21
959	-2.08
960	-3.92
961	-3.87
962	-6.38
963	-5.96
964	-7.36
965	-3.01
966	-10.43
967	-5.87
968	-8
969	-4.03
970	-6.84
971	-3.24
972	-5.91
973	-2.92
974	-7.42
975	-8.76
976	-4.7
977	-7.16
978	-8.04
979	-5.84
980	-3.14
981	-4.87
982	-7.85
983	-8.97
984	-7.82
985	-1.96
986	-6.49
987	-1.91
988	-8.08
989	-4.24
990	-4.62
991	-7.88
992	-7.6
993	-5.2
994	-4.74
995	-7.37
996	-4.97
997	-5.39
998	-6.56
999	-5.93
1000	1
